c
     Data file for  Fr-223 decay chain - atomic wt is 223.0197
c    =========================================================
c
c    Parent gamma rays - Primary (beta) decay branch
c    -----------------------------------------------
c
     There are   131 parent gamma rays or X-rays in the beta branch
c
c    keV         Gamma (%)    +/-        Comment
c    ----------  ---------  ----------   ----------------------------
        6.38        0.07      0.07       intensity upper limit
       10.622       0.91      0.23       Ra Ll
       12.325      16.        4.         Ra La
       13.662       0.30      0.08       Ra Ln
       15.          0.0       0.0        intensity unknown
       15.213      19.        5.         Ra Lb
       18.016       4.3       1.1        Ra Lg
       20.27        0.8       0.3
       25.22        0.0       0.0        intensity unknown
       29.58        0.025     0.006
       29.869       0.03      0.0        Reference intensity?
       31.566       0.27      0.27       intensity upper limit
       43.73        0.0033    0.0011
       48.27        0.00017   0.00003
       49.85        0.8       0.4        intensity approximate
       50.14       33.        0.0        ?
       51.29        2.3E-05   0.8E-05
       54.18        0.00014   0.00007    intensity approximate
       61.435       0.26      0.26       intensity upper limit
       68.75        0.47      0.47       intensity upper limit
       79.72        8.9       1.3
       85.429       2.4       0.5        Ra Ka2
       88.471       4.0       0.8        Ra Ka1
       99.56        0.00022   0.00011    intensity approximate
       99.915       1.4       0.3        Ra Kb1'
      100.31        1.0       0.5        intensity approximate
      103.341       0.47      0.09       Ra Kb2'
      134.50        0.56      0.05
      173.38        0.128     0.012
      184.68        0.29      0.03
      204.20        0.0039    0.0008
      204.95        1.13      0.19
      206.04        0.0033    0.0010
      206.39        9.E-05    9.E-05     intensity upper limit
      210.58        0.019     0.003
      224.68        0.00011   0.00004
      234.82        3.7       0.5
      235.97        0.09      0.03
      245.52        0.0       0.0        intensity unknown
      250.12        0.0053    0.0020
      254.66        0.014     0.003
      256.24        0.051     0.016
      262.72        0.0061    0.0019
      272.95        0.0083    0.0015
      279.70        0.0010    0.0004
      284.24        0.0008    0.0004
      286.11        0.0121    0.0005
      289.60        0.25      0.06
      292.30        0.0036    0.0012
      299.97        0.030     0.009
      304.51        0.018     0.003
      307.89        0.030     0.009      ?
      312.57        0.029     0.008
      319.18        0.54      0.04
      329.84        0.039     0.012
      334.38        0.0168    0.0024
      339.45        0.066     0.013      ?
      342.44        0.023     0.007
      369.32        0.107     0.009
      448.00        0.0009    0.0005     intensity approximate
      452.52        0.0020    0.0010     intensity approximate
      457.07        0.0014    0.0007     intensity approximate
      480.25        0.0012    0.0005
      482.14        0.0018    0.0006
      493.15        0.0022    0.0007
      507.64        0.0031    0.0007
      515.96        0.0023    0.0007
      524.02        0.0019    0.0005
      536.88        0.0044    0.0015
      552.09        0.0046    0.0016
      555.91        0.0017    0.0004
      568.76        0.037     0.010
      575.80        0.029     0.009
      578.20        0.0017    0.0005
      588.17        0.00024   0.00011
      596.44        0.0022    0.0011     intensity approximate
      607.20        0.0014    0.0003
      621.92        0.00037   0.00014
      643.93        0.0027    0.0014     intensity approximate
      648.43        8.E-05    3.E-05
      691.46        0.009     0.003
      704.19        0.0044    0.0022     intensity approximate
      707.18        0.0008    0.0003
      718.22        0.00024   0.00008
      722.60        0.025     0.012
      723.86        0.049     0.010
      733.9         0.007     0.004      intensity approximate
      734.60        0.0020    0.0007
      736.76        0.0014    0.0006
      746.24        0.024     0.005
      748.56        0.016     0.008      intensity approximate
      753.44        0.0062    0.0017     ?
      754.17        0.0066    0.0025     ?
      756.79        0.013     0.007      intensity approximate
      757.03        0.016     0.004      ?
      762.30        0.0020    0.0004
      764.52        0.079     0.017
      772.85        0.00051   0.00025
      775.82        0.40      0.04
      780.59        0.0025    0.0005
      784.04        0.0066    0.0025     ?
      786.90        0.0021    0.0005     ?
      788.36        0.0027    0.0027     intensity upper limit
      792.6         0.0046    0.0046     intensity upper limit
      793.11        0.00012   0.00005
      796.96        0.0101    0.0018
      803.58        0.058     0.008
      808.26        0.0006    0.0003     intensity approximate
      812.15        0.0207    0.0020
      817.31        0.005     0.003      intensity approximate
      818.23        0.0020    0.0020     intensity upper limit
      822.99        0.010     0.003
      825.96        0.050     0.014      ?
      825.97        0.0013    0.0003
      828.31        0.0012    0.0004
      828.53        0.00013   0.00006
      837.36        0.0068    0.0019
      842.02        0.0049    0.0009
      846.56        0.035     0.008      ?
      848.88        0.0033    0.0017     intensity approximate
      857.89        0.00037   0.00014
      858.40        0.0031    0.0007
      863.2         0.0020    0.0008     ?
      867.23        0.0012    0.0004     ?
      876.14        0.041     0.007      ?
      878.16        0.00068   0.00012    ?
      891.0         0.0020    0.0010     intensity approximate
      892.8         0.0013    0.0005
      896.41        0.019     0.003
      908.03        0.0130    0.0019
      926.28        0.0016    0.0005
c    ----------------------------------------------------------------
     Systematic uncertainty:  20.0 percent (TORI gives this as "approximate")
c
c
c    Decay chain and daughter information (alpha and beta branches)
c    --------------------------------------------------------------
c
     This decay chain has  2 branches ------
c
c    Nuclide   Gamma Line   Brems'lung  Half Life            Branch Fraction
c    Name      File Name    File Name         (sec) (%+/-)   (type)(fraction)(%+/-)  Add?
c    -------   ----------   ----------  ------------------   ----------------------  ----  
c
     Branch 1:    2 members -----
      Fr-223   FR223A.GAM   NO_FILE     1.30800E+03   1.83   Alpha  0.00006   16.67   Y
      At-219   AT219A.GAM   NO_FILE     5.40000E+00  11.11   Alpha  0.97       1.0    Y
c
     Branch 2:    2 members -----
      Fr-223   FR223B.GAM   NO_FILE     1.30800E+03   1.83   Beta   0.99994    0.001  Y
      Ra-223   RA223.GAM    NO_FILE     9.87600E+05   0.18   Alpha  1.000      0.0    Y
