c
     Data file for  Th-227 decay chain - atomic wt is 227.0277
c    =========================================================
c
c    Parent gamma rays
c    -----------------
c
     There are   243 parent gamma rays or X-rays
c
c    keV         Gamma (%)    +/-        Comment
c    ----------  ---------  ----------   ----------------------------
       10.622       0.98      0.20       Ra Ll
       12.325      17.        3.         Ra La
       13.662       0.36      0.07       Ra Ln
       15.218      21.        4.         Ra Lb
       17.997       4.8       1.0        Ra Lg
       20.27        0.20      0.06
       20 64        0.0       0.0        intensity unknown
       29.58        0.0060    0.0012
       29.869       0.10      0.03
       31.566       0.08      0.02
       33.52        0.014     0.007      intensity approximate
       40.16        0.020     0.004
       41.88        0.040     0.008
       43.53        0.05      0.02       ?
       43.73        0.23      0.03
       44.08        0.007     0.003
       44.37        0.013     0.006
       44.44        0.0       0.0        intensity unknown
       48.27        0.010     0.001
       49.85        0.20      0.10       intensity approximate
       50.14        8.5       0.3
       50.82        0.016     0.007
       51.29        0.0030    0.0006
       54.18        0.008     0.004      intensity approximate
       56.03        0.0050    0.0025     intensity approximate
       56.63        0.007     0.004      intensity approximate
       59.5         0.009     0.003
       61.435       0.08      0.02
       62.05        0.0020    0.0004     ?
       62.36        0.24      0.03
       62.54        0.009     0.004
       64.37        0.028     0.010
       66.1         0.006     0.003      intensity approximate
       66.3         0.007     0.003
       68.7         0.0057    0.0011     ?
       68.75        0.04      0.01
       69.65        0.009     0.003      ?
       72.80        0.028     0.006      ?
       73.66        0.019     0.003
       75.10        0.009     0.005      intensity approximate
       79.72        2.1       0.1
       85.429       1.87      0.12       Ra Ka2
       88.471       3.08      0.19       Ra Ka1
       89.85        0.0034    0.0007
       93.93        1.40      0.12
       94.90        0.012     0.002
       96.06        0.06      0.01
       99.56        0.013     0.007      intensity approximate
       99.64        0.002     0.001      intensity approximate
       99.915       1.10      0.07       Ra Kb1'
      100.31        0.086     0.010
      102.45        0.00120   0.00024
      103.341       0.359     0.023      Ra Kb2'
      104.9         0.04      0.02       intensity approximate
      107.92        0.007     0.002
      109.1         0.006     0.003      intensity approximate
      110.58        0.005     0.001      ?
      112.54        0.008     0.004      intensity approximate
      113.12        0.15      0.05
      113.19        0.56      0.11
      117.17        0.17      0.01
      117.30        0.012     0.003
      123.55        0.008     0.002
      124.48        0.0050    0.0025     intensity approximate
      124.60        0.003     0.0015     intensity approximate
      134.50        0.0252    0.0025 
      140.33        0.032     0.006
      141.44        0.13      0.01
      150.02        0.010     0.005      intensity approximate
      162.18        0.007     0.002
      168.19        0.014     0.002
      169.98        0.003     0.0015     intensity approximate
      171.21        0.0010    0.0005     intensity approximate
      173.38        0.0153    0.0018
      175.23        0.018     0.004      ?
      179.28        0.002     0.001      intensity approximate
      184.68        0.035     0.004
      197.61        0.012     0.003
      200.48        0.020     0.004      ?
      201.64        0.020     0.004
      202.4         0.006     0.002      ?
      204.20        0.23      0.03
      204.95        0.134     0.022
      206.04        0.23      0.02
      206.39        0.012     0.012      intensity upper value
      210.58        1.13      0.08
      212.56        0.070     0.015
      212.69        0.017     0.005
      218.77        0.06      0.01
      218.94        0.04      0.01
      224.68        0.015     0.003
      230.17        0.0007    0.0004     intensity approximate
      234.82        0.44      0.04
      235.97       11.2       0.6
      246.07        0.011     0.002
      249.36        0.007     0.002      ?
      250.12        0.37      0.09
      250.33        0.13      0.02
      252.46        0.11      0.02
      254.66        0.8       0.1
      256.24        6.7       0.5
      262.72        0.10      0.01
      266.30        0.0025    0.0005
      267.82        0.010     0.005      intensity approximate
      270.34        0.0080    0.0016
      270.76        0.032     0.012
      272.95        0.49      0.04
      275.2         0.0015    0.0008     intensity approximate
      279.70        0.07      0.02
      281.00        0.0070    0.0014
      281.31        0.16      0.01
      284.24        0.05      0.02
      285.48        0.055     0.010
      286.11        1.59      0.05
      289.5         0.009     0.005      intensity approximate
      289.60        0.011     0.003      ?
      292.30        0.06      0.01
      296.54        0.43      0.03
      299.97        2.10      0.20
      300.34        0.20      0.08
      304.51        1.09      0.13
      307.89        0.0013    0.0004
      308.49        0.015     0.002
      312.57        0.47      0.05
      314.78        0.03      0.01
      314.82        0.46      0.06
      318.58        0.006     0.002
      319.18        0.024     0.003
      325.08        0.006     0.001
      326.12        0.005     0.002
      329.84        2.73      0.16
      334.38        0.99      0.09
      339.10        0.0014    0.0007     intensity approximate
      339.45        0.0030    0.0007
      342.44        0.38      0.05
      346.39        0.0075    0.0015
      348.4         0.006     0.002      ?
      350.48        0.11      0.01
      352.57        0.010     0.002
      362.55        0.005     0.001
      369.32        0.0048    0.0006
      370.85        0.0070    0.0014     ?
      374.93        0.0014    0.0005     ?
      376.26        0.006     0.002      ?
      382.15        0.006     0.001
      383.47        0.048     0.006
      392.24        0.009     0.002
      398.60        0.009     0.005      ?
      402.42        0.012     0.004      ?
      415.09        0.0017    0.0004     ?
      432.29        0.005     0.001
      448.00        0.00015   0.00008    intensity approximate
      452.52        0.00010   0.00005    intensity approximate
      457.07        7.E-05    4.E-05     intensity approximate
      461.9         5.E-05    3.E-05     intensity approximate
      466.2         5.E-05    3.E-05     intensity approximate
      480.25        0.0003    0.0001     ?
      482.14        0.00014   0.00004    ?
      493.15        0.00055   0.00008
      507.64        0.00040   0.00008
      515.96        0.00018   0.00004
      524.02        0.00015   0.00003
      534.9         0.00010   0.00003    ?
      536.88        0.0011    0.0002
      552.09        0.00023   0.00005
      555.91        0.00022   0.00004
      568.76        0.0006    0.0001     ?
      575.80        0.00013   0.00003
      578.20        0.00013   0.00003
      588.17        6.E-05    2.E-05     ?
      596.44        1.E-05    0.5E-05    intensity approximate
      607.20        0.00018   0.00004
      621.92        6.E-05    2.E-05
      623.52        0.00016   0.00004
      633.2         0.00013   0.00003
      641.45        2.0E-05   0.6E-05
      643.93        5.E-05    2.E-05
      648.43        2.0E-05   0.6E-05    ?
      662.8         6.E-05    2.E-05
      691.46        4.E-05    1.E-05
      704.19        8.E-05    2.E-05     ?
      707.18        4.E-05    1.E-05
      718.22        3.E-05    1.E-05     ?
      722.60        0.00038   0.00011    ?
      723.86        0.0008    0.0002
      733.9         0.00010   0.00004
      734.60        0.00016   0.00005
      736.76        7.E-05    2.E-05     ?
      746.24        9.1E-05   2.0E-05
      748.56        0.00030   0.00006    ?
      753.44        0.00010   0.00003
      754.17        0.00010   0.00003    ?
      756.79        0.00020   0.00005    ?
      757.03        0.00078   0.00019
      762.30        0.00026   0.00005
      764.52        0.00030   0.00006
      772.85        0.00013   0.00005
      775.82        0.00153   0.00017
      780.59        0.00032   0.00006
      784.04        0.00010   0.00003
      786.90        0.000105  0.000023   ?
      788.36        4.E-05    1.E-05     ?
      792.6         4.E-05    1.E-05     ?
      793.12        3.E-05    1.E-05     ?
      796.96        0.00079   0.00009
      803.58        0.00095   0.00009
      808.26        5.E-05    3.E-05     intensity approximate
      812.15        0.0026    0.0003
      817.31        0.00010   0.00003
      818.23        3.E-05    1.E-05     ?
      822.99        0.0025    0.0003
      825.96        0.00019   0.00005
      828.31        0.00020   0.00005    ?
      828.53        1.0E-05   0.4E-05    ?
      837.36        0.00040   0.00004
      842.02        0.00062   0.00006
      846.56        0.00016   0.00003
      848.88        6.E-05    2.E-05     ?
      854.2         7.0E-05   1.4E-05    ?
      857.89        6.E-05    2.E-05
      858.40        0.00024   0.00004
      863.2         2.0E-05   0.8E-05    ?
      867.23        7.1E-05   1.3E-05
      876.14        0.00018   0.00004
      878.16        0.000111  0.000023
      891.0         2.0E-05   0.6E-05    ?
      892.8         1.3E-05   0.4E-05
      896.41        8.3E-05   1.5E-05
      908.03        0.0021    0.0003
      909.85        1.5E-05   0.6E-05
      920.06        1.2E-05   0.3E-05
      926.28        7.E-06    2.E-06
      938.34        1.0E-05   0.4E-05
      941.41        7.2E-05   1.1E-05
      958.6         6.2E-05   1.2E-05
      969.91        3.0E-05   0.6E-05
      971.28        1.0E-05   0.5E-05
      990.2         3.5E-05   0.9E-05
      994.9         7.E-06    4.E-06     intensity approximate
      999.78        3.E-05    1.E-05
     1015.1         1.5E-05   0.4E-05    ?
     1020.0         2.0E-05   0.6E-05
     1024.8         1.5E-05   0.5E-05
c    ----------------------------------------------------------------
     Systematic uncertainty:  20.0 percent
c
c
c    Decay chain and daughter information
c    ------------------------------------
c
     This decay chain has   1 branches ------
c
c    Nuclide   Gamma Line   Brems'lung  Half Life            Branch Fraction
c    Name      File Name    File Name         (sec) (%+/-)   (type)(fraction)(%+/-)  Add?
c    -------   ----------   ----------  ------------------   ----------------------  ----  
c
     Branch 1:    2 members -----
      Th-227   TH227.GAM    NO_FILE     1.61700E+06   0.11   Alpha  1.000      0.0    Y
      Ra-223   RA223.GAM    NO_FILE     9.87600E+05   0.18   Alpha  1.000      0.0    Y
